{
  "resourceType": "Bundle",
  "id": "1000000-2",
  "meta": {
    "profile": [
      "http://hl7.org/fhir/StructureDefinition/Bundle"
    ]
  },
  "type": "transaction-response",
  "timestamp": "2019-12-31T20:26:23.217+00:00",
  "link": [
    {
      "relation": "self",
      "url": "https://example.com/base/fhir/Patient?ct=W4sidG9rZW4iOiIrUklEOn53MThjQUk5RlVPZ0lEQUFBQUFBQU"
    }
  ],
  "entry": [
    {
      "fullUrl": "https://example.com/base/Patient/1-2",
      "resource": {
        "resourceType": "Patient",
        "id": "1-2",
        "meta": {
          "profile": [
            "http://hl7.org/fhir/us/core/StructureDefinition/us-core-patient"
          ],
          "lastUpdated": "2019-07-07T13:26:22.0314215+00:00"
        },
        "language": "en-US",
        "active": true,
        "name": [
          {
            "family": "Appleseed",
            "given": [
              "Johnny"
            ]
          }
        ],
        "telecom": [
          {
            "system": "phone",
            "value": "(443)555-1212",
            "rank": 1
          },
          {
            "system": "phone",
            "value": "(410)678-2323",
            "rank": 2
          }
        ],
        "gender": "male",
        "birthDate": "1986-01-01",
        "address": [
          {
            "type": "physical",
            "line": [
              "123 Main Street"
            ],
            "city": "Pittsburgh",
            "state": "PA",
            "postalCode": "12519"
          }
        ],
        "maritalStatus": {
          "coding": [
            {
              "code": "UNK",
              "system": "http://terminology.hl7.org/CodeSystem/v3-NullFlavor"
            }
          ]
        },
        "identifier": [
          {
            "type": {
              "coding": [
                {
                  "code": "MB",
                  "system": "http://terminology.hl7.org/CodeSystem/v2-0203"
                }
              ]
            },
            "value": "https://www.xxxhealthplan.com/fhir/memberidentifier#1234-234-1243-12345678901",
            "system": "https://www.xxxhealthplan.com/fhir/memberidentifier"
          },
          {
            "type": {
              "coding": [
                {
                  "code": "MR",
                  "system": "http://terminology.hl7.org/CodeSystem/v2-0203"
                }
              ]
            },
            "value": "1234-234-1243-12345678901m",
            "system": "https://www.xxxhealthplan.com/fhir/medicalrecordnumber"
          },
          {
            "type": {
              "coding": [
                {
                  "code": "XV",
                  "system": "http://terminology.hl7.org/CodeSystem/v2-0203"
                }
              ]
            },
            "value": "1234-234-1243-12345678901u",
            "system": "https://www.xxxhealthplan.com/fhir/uniquememberidentifier"
          },
          {
            "type": {
              "coding": [
                {
                  "code": "PT",
                  "system": "http://terminology.hl7.org/CodeSystem/v2-0203"
                }
              ]
            },
            "value": "1234-234-1243-12345678901a",
            "system": "https://www.xxxhealthplan.com/fhir/patacctnum"
          }
        ]
      },
      "response": {
        "status": "200"
      }
    },
    {
      "fullUrl": "https://example.com/base/Encounter/6-1-2",
      "resource": {
        "resourceType": "Encounter",
        "id": "6-1-2",
        "meta": {
          "profile": [
            "http://hl7.org/fhir/us/core/StructureDefinition/us-core-encounter"
          ],
          "lastUpdated": "2019-07-14T19:26:23.217+00:00"
        },
        "status": "finished",
        "class": {
          "code": "AMB",
          "system": "http://terminology.hl7.org/CodeSystem/v3-ActCode",
          "display": "Ambulatory"
        },
        "type": [
          {
            "coding": [
              {
                "code": "11429006",
                "system": "http://snomed.info/sct",
                "version": "http://snomed.info/sct/731000124108",
                "display": "Consultation"
              }
            ]
          }
        ],
        "subject": {
          "reference": "Patient/1-2"
        }
      },
      "response": {
        "status": "200"
      }
    },
    {
      "fullUrl": "https://example.com/base/Encounter/7-1-2",
      "resource": {
        "resourceType": "Encounter",
        "id": "7-1-2",
        "meta": {
          "profile": [
            "http://hl7.org/fhir/us/core/StructureDefinition/us-core-encounter"
          ],
          "lastUpdated": "2019-10-15T20:26:23.217+00:00"
        },
        "status": "finished",
        "class": {
          "code": "AMB",
          "system": "http://terminology.hl7.org/CodeSystem/v3-ActCode",
          "display": "Ambulatory"
        },
        "type": [
          {
            "coding": [
              {
                "code": "11429006",
                "system": "http://snomed.info/sct",
                "version": "http://snomed.info/sct/731000124108",
                "display": "Consultation"
              }
            ]
          }
        ],
        "subject": {
          "reference": "Patient/1-2"
        }
      },
      "response": {
        "status": "200"
      }
    },
    {
      "fullUrl": "https://example.com/base/Encounter/8-2",
      "resource": {
        "resourceType": "Encounter",
        "id": "8-2",
        "meta": {
          "profile": [
            "http://hl7.org/fhir/us/core/StructureDefinition/us-core-encounter"
          ],
          "lastUpdated": "2020-06-15T20:26:23.217+00:00"
        },
        "status": "finished",
        "class": {
          "code": "AMB",
          "system": "http://terminology.hl7.org/CodeSystem/v3-ActCode",
          "display": "Ambulatory"
        },
        "type": [
          {
            "coding": [
              {
                "code": "11429006",
                "system": "http://snomed.info/sct",
                "version": "http://snomed.info/sct/731000124108",
                "display": "Consultation"
              }
            ]
          }
        ],
        "subject": {
          "reference": "Patient/1-2"
        }
      },
      "response": {
        "status": "200"
      }
    },
    {
      "fullUrl": "https://example.com/base/Provenance/1000002-1-2",
      "resource": {
        "resourceType": "Provenance",
        "id": "1000002-1-2",
        "meta": {
          "versionId": "1",
          "profile": [
            "http://hl7.org/fhir/us/davinci-pdex/StructureDefinition/pdex-provenance"
          ],
          "lastUpdated": "2019-07-14T19:26:23.217+00:00"
        },
        "target": [
          {
            "reference": "https://example.com/base/Encounter/6-1-2"
          }
        ],
        "recorded": "2020-07-10T16:26:23.217+00:00",
        "agent": [
          {
            "type": {
              "coding": [
                {
                  "code": "author",
                  "system": "http://terminology.hl7.org/CodeSystem/provenance-participant-type",
                  "display": "Author"
                }
              ]
            },
            "who": {
              "reference": "Organization/ProviderOrg1"
            }
          }
        ],
        "entity": [
          {
            "role": "source",
            "what": {
              "display": "No reference available"
            },
            "extension": [
              {
                "valueCodeableConcept": {
                  "coding": [
                    {
                      "code": "hl7ccda",
                      "system": "http://hl7.org/fhir/us/davinci-pdex/CodeSystem/ProvenancePayerDataSource",
                      "display": "HL7 C-CDA"
                    }
                  ]
                },
                "url": "http://hl7.org/fhir/us/davinci-pdex/StructureDefinition/ProvenanceSourceFrom"
              }
            ]
          }
        ]
      },
      "response": {
        "status": "200"
      }
    },
    {
      "fullUrl": "https://example.com/base/Provenance/1000003-1-2",
      "resource": {
        "resourceType": "Provenance",
        "id": "1000003-1-2",
        "meta": {
          "versionId": "1",
          "lastUpdated": "2019-10-15T20:26:23.217+00:00"
        },
        "target": [
          {
            "reference": "Encounter/7-1-2"
          }
        ],
        "recorded": "2020-07-10T16:26:23.217+00:00",
        "agent": [
          {
            "type": {
              "coding": [
                {
                  "code": "author",
                  "system": "http://terminology.hl7.org/CodeSystem/provenance-participant-type",
                  "display": "Author"
                }
              ]
            },
            "who": {
              "reference": "Organization/ProviderOrg1"
            }
          }
        ],
        "entity": [
          {
            "role": "source",
            "what": {
              "display": "No reference available"
            },
            "extension": [
              {
                "valueCodeableConcept": {
                  "coding": [
                    {
                      "code": "hl7ccda",
                      "system": "http://hl7.org/fhir/us/davinci-pdex/CodeSystem/ProvenancePayerDataSource",
                      "display": "HL7 C-CDA"
                    }
                  ]
                },
                "url": "http://hl7.org/fhir/us/davinci-pdex/StructureDefinition/ProvenanceSourceFrom"
              }
            ]
          }
        ]
      },
      "response": {
        "status": "200"
      }
    },
    {
      "fullUrl": "https://example.com/base/Provenance/1000004-1-2",
      "resource": {
        "resourceType": "Provenance",
        "id": "1000004-1-2",
        "meta": {
          "versionId": "1",
          "lastUpdated": "2019-12-31T20:26:23.217+00:00"
        },
        "target": [
          {
            "reference": "Patient/1-2"
          },
          {
            "reference": "Encounter/6-1-2"
          },
          {
            "reference": "Encounter/7-1-2"
          },
          {
            "reference": "Provenance/1000002-1-2"
          },
          {
            "reference": "Provenance/1000003-1-2"
          }
        ],
        "recorded": "2019-12-31T20:26:23.217+00:00",
        "agent": [
          {
            "type": {
              "coding": [
                {
                  "code": "transmitter",
                  "system": "http://hl7.org/fhir/us/core/CodeSystem/us-core-provenance-participant-type",
                  "display": "Transmitter"
                }
              ]
            },
            "who": {
              "reference": "Organization/Payer1"
            },
            "role": [
              {
                "coding": [
                  {
                    "code": "TRANS",
                    "system": "http://terminology.hl7.org/CodeSystem/contractsignertypecodes"
                  }
                ]
              }
            ]
          }
        ]
      },
      "response": {
        "status": "200"
      }
    },
    {
      "fullUrl": "https://example.com/base/Provenance/1000004-2",
      "resource": {
        "resourceType": "Provenance",
        "id": "1000004-2",
        "meta": {
          "versionId": "1",
          "lastUpdated": "2020-06-15T20:26:23.217+00:00"
        },
        "target": [
          {
            "reference": "Encounter/8-2"
          }
        ],
        "recorded": "2020-06-15T20:26:23.217+00:00",
        "agent": [
          {
            "type": {
              "coding": [
                {
                  "code": "author",
                  "system": "http://terminology.hl7.org/CodeSystem/provenance-participant-type",
                  "display": "Author"
                }
              ]
            },
            "who": {
              "reference": "Organization/ProviderOrg1"
            }
          }
        ],
        "entity": [
          {
            "role": "source",
            "what": {
              "display": "No reference available"
            },
            "extension": [
              {
                "valueCodeableConcept": {
                  "coding": [
                    {
                      "code": "hl7ccda",
                      "system": "http://hl7.org/fhir/us/davinci-pdex/CodeSystem/ProvenancePayerDataSource",
                      "display": "HL7 C-CDA"
                    }
                  ]
                },
                "url": "http://hl7.org/fhir/us/davinci-pdex/StructureDefinition/ProvenanceSourceFrom"
              }
            ]
          }
        ]
      },
      "response": {
        "status": "200"
      }
    },
    {
      "fullUrl": "https://example.com/base/Provenance/1000005-2",
      "resource": {
        "resourceType": "Provenance",
        "id": "1000005-2",
        "meta": {
          "versionId": "1",
          "lastUpdated": "2020-12-31T20:26:23.217+00:00"
        },
        "target": [
          {
            "reference": "Bundle/1000000-2"
          }
        ],
        "recorded": "2019-12-31T20:26:23.217+00:00",
        "agent": [
          {
            "type": {
              "coding": [
                {
                  "code": "transmitter",
                  "system": "http://hl7.org/fhir/us/core/CodeSystem/us-core-provenance-participant-type",
                  "display": "Transmitter"
                }
              ]
            },
            "who": {
              "reference": "Organization/Payer1"
            },
            "role": [
              {
                "coding": [
                  {
                    "code": "TRANS",
                    "system": "http://terminology.hl7.org/CodeSystem/contractsignertypecodes"
                  }
                ]
              }
            ]
          }
        ]
      },
      "response": {
        "status": "200"
      }
    }
  ]
}
