<?xml version="1.0" encoding="UTF-8"?>
<ImplementationGuide xmlns="http://hl7.org/fhir">
    <id value="davinci-pdex"/>
    <meta>
        <versionId value="16"/>
        <lastUpdated value="2019-02-12T11:24:51.520-05:00"/>
    </meta>
    <contained>
        <Binary>
            <id value="6390"/>
            <contentType value="text/markdown"/>
            <data
                value=""
            />
        </Binary>
    </contained>
    <contained>
        <Binary>
            <id value="8052"/>
            <contentType value="text/markdown"/>
            <data
                value=""
            />
        </Binary>
    </contained>
    <contained>
        <Binary>
            <id value="9629"/>
            <contentType value="text/markdown"/>
            <data
                value=""
            />
        </Binary>
    </contained>
    <contained>
        <Binary>
            <id value="9765"/>
            <contentType value="text/markdown"/>
            <data
                value=""
            />
        </Binary>
    </contained>
    <contained>
        <Binary>
            <id value="8880"/>
            <contentType value="text/markdown"/>
            <data
                value=""
            />
        </Binary>
    </contained>
    <contained>
        <Binary>
            <id value="9808"/>
            <contentType value="text/markdown"/>
            <data
                value=""
            />
        </Binary>
    </contained>
    <contained>
        <Binary>
            <id value="8258"/>
            <contentType value="text/markdown"/>
            <data
                value=""
            />
        </Binary>
    </contained>
    <contained>
        <Binary>
            <id value="6226"/>
            <contentType value="text/markdown"/>
            <data
                value=""
            />
        </Binary>
    </contained>
    <contained>
        <Binary>
            <id value="7621"/>
            <contentType value="text/markdown"/>
            <data
                value=""
            />
        </Binary>
    </contained>
    <contained>
        <Binary>
            <id value="6306"/>
            <contentType value="text/markdown"/>
            <data
                value=""
            />
        </Binary>
    </contained>
    <contained>
        <Binary>
            <id value="7341"/>
            <contentType value="text/markdown"/>
            <data
                value=""
            />
        </Binary>
    </contained>
    <contained>
        <Binary>
            <id value="5290"/>
            <contentType value="text/markdown"/>
            <data
                value=""
            />
        </Binary>
    </contained>
    <contained>
        <Binary>
            <id value="8808"/>
            <contentType value="text/markdown"/>
            <data
                value=""
            />
        </Binary>
    </contained>
    <contained>
        <Binary>
            <id value="5449"/>
            <contentType value="text/markdown"/>
            <data
                value=""
            />
        </Binary>
    </contained>
    <contained>
        <Binary>
            <id value="8296"/>
            <contentType value="text/markdown"/>
            <data
                value=""
            />
        </Binary>
    </contained>
    <contained>
        <Binary>
            <id value="5769"/>
            <contentType value="text/markdown"/>
            <data
                value=""
            />
        </Binary>
    </contained>
    <contained>
        <Binary>
            <id value="6832"/>
            <contentType value="text/markdown"/>
            <data
                value=""
            />
        </Binary>
    </contained>
    <contained>
        <Binary>
            <id value="9089"/>
            <contentType value="text/markdown"/>
            <data
                value=""
            />
        </Binary>
    </contained>
    <contained>
        <Binary>
            <id value="6864"/>
            <contentType value="text/markdown"/>
            <data
                value=""
            />
        </Binary>
    </contained>
    <contained>
        <Binary>
            <id value="5993"/>
            <contentType value="text/markdown"/>
            <data
                value=""
            />
        </Binary>
    </contained>
    <contained>
        <Binary>
            <id value="9358"/>
            <contentType value="text/markdown"/>
            <data
                value=""
            />
        </Binary>
    </contained>
    <contained>
        <Binary>
            <id value="5891"/>
            <contentType value="text/markdown"/>
            <data
                value=""
            />
        </Binary>
    </contained>
    <contained>
        <Binary>
            <id value="6347"/>
            <contentType value="text/markdown"/>
            <data
                value=""
            />
        </Binary>
    </contained>
    <contained>
        <Binary>
            <id value="5608"/>
            <contentType value="text/markdown"/>
            <data
                value=""
            />
        </Binary>
    </contained>
    <url value="http://hl7.org/fhir/us/davinci-pdex/ImplementationGuide/davinci-pdex"/>
    <version value="0.0.1"/>
    <name value="Da Vinci Payer Data Exchange"/>
    <title value="Da Vinci Payer Data exchange"/>
    <status value="draft"/>
    <experimental value="true"/>
    <description
        value="This specification is currently undergoing ballot and connectathon testing. It is expected to evolve, possibly significantly, as part of that process.&#xA;Feedback is welcome and may be submitted through the FHIR gForge tracker indicating US Da Vinci PDex as the specification. If balloting on this IG, please submit your comments via the tracker and just reference them in your ballot submission implementation guide.&#xA;&#xA;See the [Table of Contents](/toc.html) for more information."/>
    <fhirVersion value="4.0.0"/>
    <definition>
        <page>
            <extension
                url="https://trifolia-on-fhir.lantanagroup.com/StructureDefinition/extension-ig-page-auto-generate-toc">
                <valueBoolean value="true"/>
            </extension>
            <nameUrl value="toc.md"/>
            <title value="Table of Contents"/>
            <generation value="generated"/>
            <page>
                <nameReference>
                    <reference value="#6390"/>
                    <display value="Page content 6390"/>
                </nameReference>
                <title value="Home Page"/>
                <generation value="markdown"/>
                <page>
                    <nameReference>
                        <reference value="#8052"/>
                        <display value="Page content 8052"/>
                    </nameReference>
                    <title value="Overview"/>
                    <generation value="markdown"/>
                </page>
            </page>
            <page>
                <nameReference>
                    <reference value="#9629"/>
                    <display value="Page content 9629"/>
                </nameReference>
                <title value="Introduction"/>
                <generation value="markdown"/>
                <page>
                    <nameReference>
                        <reference value="#9765"/>
                        <display value="Page content 9765"/>
                    </nameReference>
                    <title value="FHIR"/>
                    <generation value="markdown"/>
                </page>
                <page>
                    <nameReference>
                        <reference value="#8880"/>
                        <display value="Page content 8880"/>
                    </nameReference>
                    <title value="Content and Organization"/>
                    <generation value="markdown"/>
                </page>
                <page>
                    <nameReference>
                        <reference value="#9808"/>
                        <display value="Page content 9808"/>
                    </nameReference>
                    <title value="Supporting Specifications"/>
                    <generation value="markdown"/>
                </page>
            </page>
            <page>
                <nameReference>
                    <reference value="#8258"/>
                    <display value="Page content 8258"/>
                </nameReference>
                <title value="Da Vinci Profiles"/>
                <generation value="markdown"/>
                <page>
                    <nameReference>
                        <reference value="#6226"/>
                        <display value="Page content 6226"/>
                    </nameReference>
                    <title value="US Core STU3 (FHIR R4) Profiles"/>
                    <generation value="markdown"/>
                </page>
                <page>
                    <nameReference>
                        <reference value="#7621"/>
                        <display value="Page content 7621"/>
                    </nameReference>
                    <title value="HRex Profiles"/>
                    <generation value="markdown"/>
                </page>
                <page>
                    <nameReference>
                        <reference value="#6306"/>
                        <display value="Page content 6306"/>
                    </nameReference>
                    <title value="US Core STU2 (FHIR STU3) Profiles"/>
                    <generation value="markdown"/>
                </page>
                <page>
                    <nameReference>
                        <reference value="#7341"/>
                        <display value="Page content 7341"/>
                    </nameReference>
                    <title value="Argonaut FHIR DSTU2) Profiles"/>
                    <generation value="markdown"/>
                </page>
                <page>
                    <nameReference>
                        <reference value="#5290"/>
                        <display value="Page content 5290"/>
                    </nameReference>
                    <title value="Extensions"/>
                    <generation value="markdown"/>
                </page>
            </page>
            <page>
                <nameReference>
                    <reference value="#8808"/>
                    <display value="Page content 8808"/>
                </nameReference>
                <title value="Use Case Scenarios"/>
                <generation value="markdown"/>
                <page>
                    <nameReference>
                        <reference value="#5449"/>
                        <display value="Page content 5449"/>
                    </nameReference>
                    <title value="New Patient at Primary Care Provider"/>
                    <generation value="markdown"/>
                </page>
                <page>
                    <nameReference>
                        <reference value="#8296"/>
                        <display value="Page content 8296"/>
                    </nameReference>
                    <title value="Returning Patient"/>
                    <generation value="markdown"/>
                </page>
                <page>
                    <nameReference>
                        <reference value="#5769"/>
                        <display value="Page content 5769"/>
                    </nameReference>
                    <title value="New Patient at Specialist"/>
                    <generation value="markdown"/>
                </page>
                <page>
                    <nameReference>
                        <reference value="#6832"/>
                        <display value="Page content 6832"/>
                    </nameReference>
                    <title value="Medication Order"/>
                    <generation value="markdown"/>
                </page>
                <page>
                    <nameReference>
                        <reference value="#9089"/>
                        <display value="Page content 9089"/>
                    </nameReference>
                    <title value="Order Review"/>
                    <generation value="markdown"/>
                </page>
            </page>
            <page>
                <nameReference>
                    <reference value="#6864"/>
                    <display value="Page content 6864"/>
                </nameReference>
                <title value="Provider-controlled Information Filtering"/>
                <generation value="markdown"/>
            </page>
            <page>
                <nameReference>
                    <reference value="#5993"/>
                    <display value="Page content 5993"/>
                </nameReference>
                <title value="CDS-Hooks"/>
                <generation value="markdown"/>
                <page>
                    <nameReference>
                        <reference value="#9358"/>
                        <display value="Page content 9358"/>
                    </nameReference>
                    <title value="Support for R4"/>
                    <generation value="markdown"/>
                </page>
                <page>
                    <nameReference>
                        <reference value="#5891"/>
                        <display value="Page content 5891"/>
                    </nameReference>
                    <title value="Additional Hooks"/>
                    <generation value="markdown"/>
                </page>
                <page>
                    <nameReference>
                        <reference value="#6347"/>
                        <display value="Page content 6347"/>
                    </nameReference>
                    <title value="Configuration"/>
                    <generation value="markdown"/>
                </page>
            </page>
            <page>
                <nameReference>
                    <reference value="#5608"/>
                    <display value="Page content 5608"/>
                </nameReference>
                <title value="Credits"/>
                <generation value="markdown"/>
            </page>
        </page>
    </definition>
</ImplementationGuide>
