<?xml version="1.0" encoding="UTF-8"?><ImplementationGuide xmlns="http://hl7.org/fhir"><id value="davinci-hrex"/><meta><versionId value="35"/><lastUpdated value="2019-03-04T10:14:12.000-05:00"/></meta><contained><Binary><id value="6509"/><contentType value="text/markdown"/><data value=""/></Binary></contained><contained><Binary><id value="8158"/><contentType value="text/markdown"/><data value=""/></Binary></contained><contained><Binary><id value="8517"/><contentType value="text/markdown"/><data value=""/></Binary></contained><contained><Binary><id value="7448"/><contentType value="text/markdown"/><data value=""/></Binary></contained><contained><Binary><id value="7637"/><contentType value="text/markdown"/><data value=""/></Binary></contained><contained><Binary><id value="5767"/><contentType value="text/markdown"/><data value=""/></Binary></contained><contained><Binary><id value="5449"/><contentType value="text/markdown"/><data value=""/></Binary></contained><contained><Binary><id value="7199"/><contentType value="text/markdown"/><data value="KiBQT1NUCiogUFVU"/></Binary></contained><contained><Binary><id value="7544"/><contentType value="text/markdown"/><data value="KiBHRVQ="/></Binary></contained><contained><Binary><id value="7705"/><contentType value="text/markdown"/><data value="KiBBc3luYyByZXF1ZXN0cyB2aWEgQ29tbXVuaWNhdGlvblJlcXVlc3Qgb3IgbWF5YmUgd29ya2Zsb3cgKGkuZS4gVGFzayk="/></Binary></contained><contained><Binary><id value="8044"/><contentType value="text/markdown"/><data value="KiBXaWxsIG5vdCBkbyBmb3IgTWF5"/></Binary></contained><contained><Binary><id value="5842"/><contentType value="text/markdown"/><data value="KiBXaWxsIG5vdCBkbyBmb3IgTWF5"/></Binary></contained><contained><Binary><id value="9157"/><contentType value="text/markdown"/><data value=""/></Binary></contained><contained><Binary><id value="8875"/><contentType value="text/markdown"/><data value="KiBXaWxsIG5vdCBkbyBmb3IgTWF5"/></Binary></contained><contained><Binary><id value="8770"/><contentType value="text/markdown"/><data value="KiBXaWxsIG5vdCBkbyBmb3IgTWF5"/></Binary></contained><contained><Binary><id value="9029"/><contentType value="text/markdown"/><data value="KiBQb2ludCB0byBGSElSIFZhbGlkYXRvciAoamFyIGZpbGUsIHNjaGVtYXMsIGV0Yy4pCiogSG93IHRvIHZhbGlkYXRlIGFnYWluc3QgRGEgVmluY2kgcHJvZmlsZXMgdXNpbmcgc2FpZCB0b29scyBvciBGSElSIHNlcnZlcnMuIA=="/></Binary></contained><contained><Binary><id value="9314"/><contentType value="text/markdown"/><data value="UG9pbnQgdG8gRkhJUiBzcGVjIHNlY3VyaXR5IHBhZ2UsIFNtYXJ0IG9uIEZISVIsIGFuZCBGQVNUIChGSElSIGF0IFNjYWxlIFRhc2sgRm9yY2Up"/></Binary></contained><extension url="https://trifolia-fhir.lantanagroup.com/stu3/StructureDefinition/github-branch"><valueString value="master"/></extension><extension url="https://trifolia-fhir.lantanagroup.com/stu3/StructureDefinition/github-path"><valueString value="HL7/davinci-ehrx/source/resources/implementationguide/davinci-hrex.xml"/></extension><extension url="https://trifolia-fhir.lantanagroup.com/r4/StructureDefinition/github-branch"><valueString value="master"/></extension><extension url="https://trifolia-fhir.lantanagroup.com/r4/StructureDefinition/github-path"><valueString value="HL7/davinci-ehrx/source/resources/implementationguide/davinci-hrex.xml"/></extension><url value="http://hl7.org/fhir/us/davinci-hrex/ImplementationGuide/davinci-hrex"/><version value="0.0.1"/><name value="Da Vinci Health Record Exchange"/><status value="draft"/><description value="This Use Case provides guidance to implementers regarding exchange of a patients eHealth Records. The Use Case is very broad encompassing the following scenarios: &#xA;&#xA;* Exchange of quality measure data to support HEDIS/Stars quality measures,&#xA;* Exchange of clinical information generated by providers during the course of care, and &#xA;* Exchange of clinical information gathered during the claims process by payers. &#xA;&#xA;The exchange of quality measure data can be from Provider to Payer, or Payer to Provider. The exchange of clinical information can be from Provider to Provider, Provider to Payer or Payer to Provider. This Use Case defines a broad set of profiles and interactions that may be utilized to accomplish this wide range of **eHealth Record exchange**. It also includes narrower implementation guidance that demonstrates how to use elements of the framework to accomplish each specific type of information exchange.&#xA;"/><packageId value="hl7.fhir.us.davinci-hrex"/><fhirVersion value="4.0.0"/><dependsOn><extension url="https://trifolia-fhir.lantanagroup.com/r4/StructureDefinition/extension-ig-depends-on-location"><valueString value="http://hl7.org/fhir/us/core-r4"/></extension><extension url="https://trifolia-fhir.lantanagroup.com/r4/StructureDefinition/extension-ig-depends-on-name"><valueString value="USCoreR4"/></extension><uri value="http://hl7.org/fhir/us/core-r4/ImplementationGuide/ig"/><packageId value="hl7.fhir.us.core.r4"/><version value="current"/></dependsOn><definition><resource><reference><reference value="StructureDefinition/hrex-coverage"/><display value="HRex Coverage"/></reference><name value="HRex Coverage"/><exampleBoolean value="false"/></resource><resource><reference><reference value="StructureDefinition/hrex-provenance"/><display value="HRex Provenance"/></reference><name value="HRex Provenance"/><exampleBoolean value="false"/></resource><resource><reference><reference value="StructureDefinition/hrex-practitioner"/><display value="HRex Practitioner"/></reference><name value="HRex Practitioner"/><exampleBoolean value="false"/></resource><resource><reference><reference value="StructureDefinition/hrex-practitionerrole"/><display value="HRex PractitionerRole"/></reference><name value="HRex PractitionerRole"/><exampleBoolean value="false"/></resource><resource><reference><reference value="StructureDefinition/hrex-organization"/><display value="HRex Organization"/></reference><name value="HRex Organization"/><exampleBoolean value="false"/></resource><page><extension url="https://trifolia-on-fhir.lantanagroup.com/StructureDefinition/extension-ig-page-auto-generate-toc"><valueBoolean value="true"/></extension><nameUrl value="toc.md"/><title value="Table of Contents"/><generation value="generated"/><page><nameReference><reference value="#6509"/><display value="Page content 6509"/></nameReference><title value="Introduction"/><generation value="markdown"/></page><page><nameReference><reference value="#8158"/><display value="Page content 8158"/></nameReference><title value="Dependencies"/><generation value="markdown"/><page><nameReference><reference value="#8517"/><display value="Page content 8517"/></nameReference><title value="FHIR R4 Dependencies"/><generation value="markdown"/></page><page><nameReference><reference value="#7448"/><display value="Page content 7448"/></nameReference><title value="FHIR STU3 Dependencies"/><generation value="markdown"/></page><page><nameReference><reference value="#7637"/><display value="Page content 7637"/></nameReference><title value="FHIR DSTU 2 (aka Argonaut) Dependencies"/><generation value="markdown"/></page></page><page><nameReference><reference value="#5767"/><display value="Page content 5767"/></nameReference><title value="HRex Profiles"/><generation value="markdown"/></page><page><nameReference><reference value="#5449"/><display value="Page content 5449"/></nameReference><title value="HRex Interactions"/><generation value="markdown"/><page><nameReference><reference value="#7199"/><display value="Page content 7199"/></nameReference><title value="Push"/><generation value="markdown"/></page><page><nameReference><reference value="#7544"/><display value="Page content 7544"/></nameReference><title value="Pull"/><generation value="markdown"/></page><page><nameReference><reference value="#7705"/><display value="Page content 7705"/></nameReference><title value="Request"/><generation value="markdown"/></page><page><nameReference><reference value="#8044"/><display value="Page content 8044"/></nameReference><title value="Subscribe"/><generation value="markdown"/></page><page><nameReference><reference value="#5842"/><display value="Page content 5842"/></nameReference><title value="Bulk Data"/><generation value="markdown"/></page><page><nameReference><reference value="#9157"/><display value="Page content 9157"/></nameReference><title value="CDS Hooks"/><generation value="markdown"/></page><page><nameReference><reference value="#8875"/><display value="Page content 8875"/></nameReference><title value="Operations"/><generation value="markdown"/></page><page><nameReference><reference value="#8770"/><display value="Page content 8770"/></nameReference><title value="Rational Combinations"/><generation value="markdown"/></page><page><nameReference><reference value="#9029"/><display value="Page content 9029"/></nameReference><title value="Validation"/><generation value="markdown"/></page></page><page><nameReference><reference value="#9314"/><display value="Page content 9314"/></nameReference><title value="Security"/><generation value="markdown"/></page></page></definition></ImplementationGuide>